Folder: read_gamry_cv_data/data

File: AuWire_100mVs_0_0.6V_AU.DTA
EXPLAIN
TAG	CV
TITLE	LABEL	CV 100 ppb As	Test &Identifier
DATE	LABEL	7/17/2018	Date
TIME	LABEL	17:47:56	Time
NOTES	NOTES	2	&Notes...
	After use. With stirring

PSTAT	PSTAT	REF600P-36072	Potentiostat
VINIT	POTEN	3.00000E-001	F	Initial &E (V)
VLIMIT1	POTEN	6.00000E-001	F	Scan Limit &1 (V)
VLIMIT2	POTEN	0.00000E+000	F	Scan Limit &2 (V)
VFINAL	POTEN	3.00000E-001	F	Final &E (V)
SCANRATE	QUANT	9.99998E+001	&Scan Rate (mV/s)
STEPSIZE	QUANT	2.00000E+000	St&ep Size (mV)
CYCLES	IQUANT	10	C&ycles (#)
IMODE	SELECTOR	0	I/E Range &Mode
IRANGE	QUANT	3.00000E-001	&Max Current (mA)
AREA	QUANT	1.00000E+000	Electrode &Area (cm^2)
ELECTRODETYPE	SELECTOR	0	Electrode Type
STRIPPING	TOGGLE	F	Used for Stripping
POLARITY	TOGGLE	F	Signal Polarity
CONDIT	TWOPARAM	F	1.50000E+001	0.00000E+000	Conditionin&g	Time(s)	E(V)
DELAY	TWOPARAM	F	3.00000E+001	0.00000E+000	Init. De&lay	Time(s)	Stab.(mV/s)
EQDELAY	QUANT	0.00000E+000	Equil. &Time (s)
IRCOMP	SELECTOR	0	IRCom&p
PFCOR	QUANT	5.00000E+001	PF Corr. (ohm)
SAMPLINGMODE	SELECTOR	1	Sampling &Mode
EOC	QUANT	0	Open Circuit (V)
PSTATMODEL	IQUANT	7	Pstat Model
PSTATSECTION	LABEL	REF600P-36072	Pstat Section
PSTATSERIALNO	LABEL	36072	Pstat Serial Number
CTRLMODE	IQUANT	1	Control Mode
ELECTROMETER	IQUANT	0	RE=0 or CS=1
IESTAB	IQUANT	2	I/E Stability
CASPEED	IQUANT	4	Control Amp Speed
CONVENTION	IQUANT	1	Current Convention
ICHRANGE	IQUANT	2	Ich Range
ICHRANGEMODE	TOGGLE	F	Ich Auto Range
ICHOFFSETENABLE	TOGGLE	F	Ich Offset Enable
ICHOFFSET	QUANT	0	Ich Offset (V)
ICHFILTER	IQUANT	2	Ich Filter
VCHRANGE	IQUANT	2	Vch Range
VCHRANGEMODE	TOGGLE	F	Vch Auto Range
VCHOFFSETENABLE	TOGGLE	F	Vch Offset Enable
VCHOFFSET	QUANT	0	Vch Offset (V)
VCHFILTER	IQUANT	2	Vch Filter
ACHRANGE	IQUANT	2	Ach Range
ACHOFFSETENABLE	TOGGLE	F	Ach Offset Enable
ACHOFFSET	QUANT	0	Ach Offset (V)
ACHFILTER	IQUANT	1	Ach Filter
IERANGELOWERLIMIT	IQUANT	1	I/E Range Lower Limit
IERANGEMODE	TOGGLE	T	I/E AutoRange
IERANGE	IQUANT	8	I/E Range
POSFEEDENABLE	TOGGLE	F	Positive Feedback IR Comp
POSFEEDRESISTANCE	QUANT	0	Positive Feedback Resistance (ohm)
ACHSELECT	IQUANT	0	Ach Select
SENSECABLEID	IQUANT	7	Sense Cable ID
PWRCABLEID	IQUANT	7	Power Cable ID
DCCALDATE	LABEL	4/16/2018	DC Calibration Date
ACCOLADE	LABEL	4/16/2018	AC Calibration Date
THERMOSELECT	IQUANT	1	Thermo Select
FRAMEWORK-VERSION	QUANT	7.06	Framework Version
INSTRUMENTVERSION	LABEL	4.30	Instrument Version
CURVE1	TABLE
	Pt	T	Vf	Im	Vu	Sig	Ach	IERange	Over	Temp
	#	s	V vs. Ref.	A	V	V	V	#	bits	deg C
	0	0.02	3.00294E-001	1.74613E-007	0.00000E+000	3.00000E-001	3.39255E-004	8	..........a	-327.62
	5	0.12	3.10307E-001	6.76070E-008	0.00000E+000	3.10000E-001	3.45922E-004	7	..........a	-327.62
	10	0.22	3.20283E-001	9.03601E-008	0.00000E+000	3.20000E-001	3.43422E-004	7	..........a	-327.62
	15	0.32	3.30320E-001	6.75820E-008	0.00000E+000	3.30000E-001	3.44255E-004	7	..........a	-327.62
	20	0.42	3.40248E-001	8.04587E-008	0.00000E+000	3.40000E-001	3.35089E-004	7	..........a	-327.62
	25	0.52	3.50332E-001	9.25520E-008	0.00000E+000	3.50000E-001	3.38422E-004	7	..........a	-327.62
	30	0.62	3.60242E-001	7.41245E-008	0.00000E+000	3.60000E-001	3.34255E-004	7	..........a	-327.62
	35	0.72	3.70278E-001	1.40809E-007	0.00000E+000	3.70000E-001	3.45922E-004	7	..........a	-327.62
	40	0.82	3.80289E-001	1.01912E-007	0.00000E+000	3.80000E-001	3.43422E-004	7	..........a	-327.62
	45	0.92	3.90268E-001	1.78122E-007	0.00000E+000	3.90000E-001	3.55089E-004	7	..........a	-327.62
	50	1.02	4.00216E-001	1.84198E-007	0.00000E+000	4.00000E-001	3.47589E-004	7	..........a	-327.62
	55	1.12	4.10256E-001	2.07168E-007	0.00000E+000	4.10000E-001	3.61755E-004	7	..........a	-327.62
	60	1.22	4.20186E-001	2.39880E-007	0.00000E+000	4.20000E-001	3.39255E-004	7	..........a	-327.62
	65	1.32	4.30300E-001	3.38877E-007	0.00000E+000	4.30000E-001	3.37589E-004	7	..........a	-327.62
	70	1.42	4.40193E-001	3.17033E-007	0.00000E+000	4.40000E-001	3.46755E-004	7	..........a	-327.62
	75	1.52	4.50312E-001	3.49737E-007	0.00000E+000	4.50000E-001	3.36755E-004	7	..........a	-327.62
	80	1.62	4.60211E-001	3.54613E-007	0.00000E+000	4.60000E-001	3.41755E-004	7	..........a	-327.62
	85	1.72	4.70233E-001	4.53301E-007	0.00000E+000	4.70000E-001	3.40922E-004	7	..........a	-327.62
	90	1.82	4.80179E-001	4.88089E-007	0.00000E+000	4.80000E-001	3.38422E-004	7	..........a	-327.62
	95	1.92	4.90252E-001	5.42963E-007	0.00000E+000	4.90000E-001	3.40089E-004	7	..........a	-327.62
	100	2.02	5.00235E-001	6.21207E-007	0.00000E+000	5.00000E-001	3.44255E-004	7	..........a	-327.62
	105	2.12	5.10166E-001	6.39818E-007	0.00000E+000	5.10000E-001	3.35089E-004	7	..........a	-327.62
	110	2.22	5.20168E-001	7.03552E-007	0.00000E+000	5.20000E-001	3.50089E-004	7	..........a	-327.62
	115	2.32	5.30256E-001	7.76854E-007	0.00000E+000	5.30000E-001	3.31755E-004	7	..........a	-327.62
	120	2.42	5.40185E-001	8.65299E-007	0.00000E+000	5.40000E-001	3.45089E-004	7	..........a	-327.62
	125	2.52	5.50271E-001	8.64399E-007	0.00000E+000	5.50000E-001	3.35922E-004	7	..........a	-327.62
	130	2.62	5.60107E-001	1.25433E-006	0.00000E+000	5.60000E-001	3.35922E-004	7	..........a	-327.62
	135	2.72	5.70158E-001	1.01192E-006	0.00000E+000	5.70000E-001	3.40922E-004	7	..........a	-327.62
	140	2.82	5.80136E-001	1.05991E-006	0.00000E+000	5.80000E-001	3.49255E-004	7	..........a	-327.62
	145	2.92	5.90216E-001	1.04289E-006	0.00000E+000	5.90000E-001	3.39255E-004	7	..........a	-327.62
	150	3.02	6.00147E-001	1.10442E-006	0.00000E+000	6.00000E-001	3.38422E-004	7	..........a	-327.62
	155	3.12	5.90218E-001	7.08203E-007	0.00000E+000	5.90000E-001	3.46755E-004	7	..........a	-327.62
	160	3.22	5.80138E-001	4.98949E-007	0.00000E+000	5.80000E-001	3.34255E-004	7	..........a	-327.62
	165	3.32	5.70181E-001	3.44128E-007	0.00000E+000	5.70000E-001	3.35089E-004	7	..........a	-327.62
	170	3.42	5.60145E-001	2.18619E-007	0.00000E+000	5.60000E-001	3.45922E-004	7	..........a	-327.62
	175	3.52	5.50221E-001	1.05929E-007	0.00000E+000	5.50000E-001	3.35922E-004	7	..........a	-327.62
	180	3.62	5.40179E-001	8.24757E-008	0.00000E+000	5.40000E-001	3.36755E-004	7	..........a	-327.62
	185	3.72	5.30243E-001	2.87433E-008	0.00000E+000	5.30000E-001	3.40089E-004	7	..........a	-327.62
	190	3.82	5.20148E-001	2.39010E-008	0.00000E+000	5.20000E-001	3.34255E-004	7	..........a	-327.62
	195	3.92	5.10215E-001	-2.87978E-008	0.00000E+000	5.10000E-001	3.09255E-004	7	..........a	-327.62
	200	4.02	5.00171E-001	-1.16205E-008	0.00000E+000	5.00000E-001	3.20922E-004	7	..........a	-327.62
	205	4.12	4.90236E-001	-3.71573E-008	0.00000E+000	4.90000E-001	2.89255E-004	7	..........a	-327.62
	210	4.22	4.80136E-001	-6.23024E-008	0.00000E+000	4.80000E-001	2.97589E-004	7	..........a	-327.62
	215	4.32	4.70185E-001	-5.01758E-008	0.00000E+000	4.70000E-001	2.85922E-004	7	..........a	-327.62
	220	4.42	4.60186E-001	-8.95144E-008	0.00000E+000	4.60000E-001	2.97589E-004	7	..........a	-327.62
	225	4.52	4.50237E-001	-6.10606E-008	0.00000E+000	4.50000E-001	2.91755E-004	7	..........a	-327.62
	230	4.62	4.40165E-001	-8.21468E-008	0.00000E+000	4.40000E-001	2.95922E-004	7	..........a	-327.62
	235	4.72	4.30222E-001	-7.70961E-008	0.00000E+000	4.30000E-001	2.89255E-004	7	..........a	-327.62
	240	4.82	4.20147E-001	-1.00424E-007	0.00000E+000	4.20000E-001	2.94255E-004	7	..........a	-327.62
	245	4.92	4.10270E-001	-1.08842E-007	0.00000E+000	4.10000E-001	3.02589E-004	7	..........a	-327.62
	250	5.02	4.00167E-001	-9.02896E-008	0.00000E+000	4.00000E-001	2.95922E-004	7	..........a	-327.62
	255	5.12	3.90234E-001	-1.12743E-007	0.00000E+000	3.90000E-001	2.99255E-004	7	..........a	-327.62
	260	5.22	3.80172E-001	-9.87824E-008	0.00000E+000	3.80000E-001	2.94255E-004	7	..........a	-327.62
	265	5.32	3.70264E-001	-1.15160E-007	0.00000E+000	3.70000E-001	2.95922E-004	7	..........a	-327.62
	270	5.42	3.60188E-001	-1.26511E-007	0.00000E+000	3.60000E-001	3.00922E-004	7	..........a	-327.62
	275	5.52	3.50156E-001	-1.19552E-007	0.00000E+000	3.50000E-001	3.02589E-004	7	..........a	-327.62
	280	5.62	3.40205E-001	-1.43630E-007	0.00000E+000	3.40000E-001	2.97589E-004	7	..........a	-327.62
	285	5.72	3.30293E-001	-1.27845E-007	0.00000E+000	3.30000E-001	3.03422E-004	7	..........a	-327.62
	290	5.82	3.20260E-001	-1.42555E-007	0.00000E+000	3.20000E-001	2.95922E-004	7	..........a	-327.62
	295	5.92	3.10253E-001	-1.42888E-007	0.00000E+000	3.10000E-001	3.01755E-004	7	..........a	-327.62
	300	6.02	3.00242E-001	-1.24611E-007	0.00000E+000	3.00000E-001	2.78422E-004	7	..........a	-327.62
	305	6.12	2.90277E-001	-1.53373E-007	0.00000E+000	2.90000E-001	2.94255E-004	7	..........a	-327.62
	310	6.22	2.80260E-001	-1.53156E-007	0.00000E+000	2.80000E-001	3.00089E-004	7	..........a	-327.62
	315	6.32	2.70306E-001	-2.05772E-007	0.00000E+000	2.70000E-001	2.94255E-004	7	..........a	-327.62
	320	6.42	2.60273E-001	-1.66217E-007	0.00000E+000	2.60000E-001	2.99255E-004	7	..........a	-327.62
	325	6.52	2.50338E-001	-1.52448E-007	0.00000E+000	2.50000E-001	2.99255E-004	7	..........a	-327.62
	330	6.62	2.40267E-001	-1.81285E-007	0.00000E+000	2.40000E-001	2.99255E-004	7	..........a	-327.62
	335	6.72	2.30330E-001	-1.79210E-007	0.00000E+000	2.30000E-001	3.05922E-004	7	..........a	-327.62
	340	6.82	2.20380E-001	-1.64350E-007	0.00000E+000	2.20000E-001	3.05922E-004	7	..........a	-327.62
	345	6.92	2.10316E-001	-2.07956E-007	0.00000E+000	2.10000E-001	3.04255E-004	7	..........a	-327.62
	350	7.02	2.00284E-001	-1.61599E-007	0.00000E+000	2.00000E-001	3.03422E-004	7	..........a	-327.62
	355	7.12	1.90297E-001	-1.80460E-007	0.00000E+000	1.90000E-001	2.93422E-004	7	..........a	-327.62
	360	7.22	1.80358E-001	-1.93945E-007	0.00000E+000	1.80000E-001	3.03422E-004	7	..........a	-327.62
	365	7.32	1.70344E-001	-1.90645E-007	0.00000E+000	1.70000E-001	2.99255E-004	7	..........a	-327.62
	370	7.42	1.60289E-001	-1.96062E-007	0.00000E+000	1.60000E-001	2.97589E-004	7	..........a	-327.62
	375	7.52	1.50345E-001	-2.27408E-007	0.00000E+000	1.50000E-001	2.96755E-004	7	..........a	-327.62
	380	7.62	1.40303E-001	-1.97746E-007	0.00000E+000	1.40000E-001	2.96755E-004	7	..........a	-327.62
	385	7.72	1.30348E-001	-1.99346E-007	0.00000E+000	1.30000E-001	2.99255E-004	7	..........a	-327.62
	390	7.82	1.20352E-001	-2.10848E-007	0.00000E+000	1.20000E-001	2.92589E-004	7	..........a	-327.62
	395	7.92	1.10348E-001	-2.16698E-007	0.00000E+000	1.10000E-001	2.99255E-004	7	..........a	-327.62
	400	8.02	1.00404E-001	-2.15707E-007	0.00000E+000	1.00000E-001	2.97589E-004	7	..........a	-327.62
	405	8.12	9.03930E-002	-2.14523E-007	0.00000E+000	9.00000E-002	2.96755E-004	7	..........a	-327.62
	410	8.22	8.03509E-002	-2.22608E-007	0.00000E+000	8.00000E-002	3.00922E-004	7	..........a	-327.62
	415	8.32	7.04113E-002	-2.24108E-007	0.00000E+000	7.00000E-002	2.99255E-004	7	..........a	-327.62
	420	8.42	6.03255E-002	-1.94579E-007	0.00000E+000	6.00000E-002	2.86755E-004	7	..........a	-327.62
	425	8.52	5.03992E-002	-2.42335E-007	0.00000E+000	5.00000E-002	3.01755E-004	7	..........a	-327.62
	430	8.62	4.04875E-002	-2.21157E-007	0.00000E+000	4.00000E-002	3.02589E-004	7	..........a	-327.62
	435	8.72	3.03955E-002	-2.39218E-007	0.00000E+000	3.00000E-002	3.04255E-004	7	..........a	-327.62
	440	8.82	2.04500E-002	-2.39252E-007	0.00000E+000	2.00000E-002	3.00089E-004	7	..........a	-327.62
	445	8.92	1.03546E-002	-2.11173E-007	0.00000E+000	1.00000E-002	2.94255E-004	7	..........a	-327.62
	450	9.02	4.10462E-004	-2.58321E-007	0.00000E+000	2.98023E-008	3.04255E-004	7	..........a	-327.62
CURVE2	TABLE
	Pt	T	Vf	Im	Vu	Sig	Ach	IERange	Over	Temp
	#	s	V vs. Ref.	A	V	V	V	#	bits	deg C
	451	9.04	2.39005E-003	-1.56157E-007	0.00000E+000	2.00003E-003	2.92589E-004	7	..........a	-327.62
	457	9.16	1.44105E-002	-4.81505E-008	0.00000E+000	1.40000E-002	2.95089E-004	7	..........a	-327.62
	463	9.28	2.64292E-002	1.76585E-008	0.00000E+000	2.60000E-002	3.30089E-004	7	..........a	-327.62
	469	9.4	3.85146E-002	-1.94382E-008	0.00000E+000	3.80000E-002	3.06755E-004	7	..........a	-327.62
	475	9.52	5.03855E-002	-1.18039E-008	0.00000E+000	5.00000E-002	3.16755E-004	7	..........a	-327.62
	481	9.64	6.24088E-002	7.28910E-008	0.00000E+000	6.20000E-002	3.41755E-004	7	..........a	-327.62
	487	9.76	7.44296E-002	7.59081E-008	0.00000E+000	7.40000E-002	3.44255E-004	7	..........a	-327.62
	493	9.88	8.63800E-002	6.37064E-008	0.00000E+000	8.60000E-002	3.36755E-004	7	..........a	-327.62
	499	10	9.84359E-002	3.91864E-008	0.00000E+000	9.80000E-002	3.32589E-004	7	..........a	-327.62
	505	10.12	1.10398E-001	8.12422E-008	0.00000E+000	1.10000E-001	3.41755E-004	7	..........a	-327.62
	511	10.24	1.22399E-001	9.01600E-008	0.00000E+000	1.22000E-001	3.40089E-004	7	..........a	-327.62
	517	10.36	1.34438E-001	9.93863E-008	0.00000E+000	1.34000E-001	3.37589E-004	7	..........a	-327.62
	523	10.48	1.46388E-001	9.85362E-008	0.00000E+000	1.46000E-001	3.37589E-004	7	..........a	-327.62
	529	10.6	1.58356E-001	7.22493E-008	0.00000E+000	1.58000E-001	3.39255E-004	7	..........a	-327.62
	535	10.72	1.70355E-001	5.57720E-008	0.00000E+000	1.70000E-001	3.37589E-004	7	..........a	-327.62
	541	10.84	1.82358E-001	1.16464E-007	0.00000E+000	1.82000E-001	3.40922E-004	7	..........a	-327.62
	547	10.96	1.94393E-001	1.31974E-007	0.00000E+000	1.94000E-001	3.32589E-004	7	..........a	-327.62
	553	11.08	2.06378E-001	1.08179E-007	0.00000E+000	2.06000E-001	3.48422E-004	7	..........a	-327.62
	559	11.2	2.18413E-001	7.89252E-008	0.00000E+000	2.18000E-001	3.38422E-004	7	..........a	-327.62
	565	11.32	2.30348E-001	9.94696E-008	0.00000E+000	2.30000E-001	3.40922E-004	7	..........a	-327.62
	571	11.44	2.42327E-001	1.29265E-007	0.00000E+000	2.42000E-001	3.40089E-004	7	..........a	-327.62
	577	11.56	2.54240E-001	1.17855E-007	0.00000E+000	2.54000E-001	3.35922E-004	7	..........a	-327.62
	583	11.68	2.66331E-001	1.22456E-007	0.00000E+000	2.66000E-001	3.40922E-004	7	..........a	-327.62
	589	11.8	2.78321E-001	1.02578E-007	0.00000E+000	2.78000E-001	3.37589E-004	7	..........a	-327.62
	595	11.92	2.90326E-001	1.03754E-007	0.00000E+000	2.90000E-001	3.45089E-004	7	..........a	-327.62
	601	12.04	3.02323E-001	1.38567E-007	0.00000E+000	3.02000E-001	3.43422E-004	7	..........a	-327.62
	607	12.16	3.14275E-001	1.66479E-007	0.00000E+000	3.14000E-001	3.50089E-004	7	..........a	-327.62
	613	12.28	3.26322E-001	1.46643E-007	0.00000E+000	3.26000E-001	3.40922E-004	7	..........a	-327.62
	619	12.4	3.38325E-001	9.66193E-008	0.00000E+000	3.38000E-001	3.42589E-004	7	..........a	-327.62
	625	12.52	3.50188E-001	1.19064E-007	0.00000E+000	3.50000E-001	3.35922E-004	7	..........a	-327.62
	631	12.64	3.62293E-001	1.36733E-007	0.00000E+000	3.62000E-001	3.40089E-004	7	..........a	-327.62
	637	12.76	3.74243E-001	1.28565E-007	0.00000E+000	3.74000E-001	3.40922E-004	7	..........a	-327.62
	643	12.88	3.86318E-001	1.27598E-007	0.00000E+000	3.86000E-001	3.39255E-004	7	..........a	-327.62
	649	13	3.98264E-001	1.08446E-007	0.00000E+000	3.98000E-001	3.35089E-004	7	..........a	-327.62
	655	13.12	4.10282E-001	9.64776E-008	0.00000E+000	4.10000E-001	3.40922E-004	7	..........a	-327.62
	661	13.24	4.22266E-001	1.51377E-007	0.00000E+000	4.22000E-001	3.46755E-004	7	..........a	-327.62
	667	13.36	4.34247E-001	1.62003E-007	0.00000E+000	4.34000E-001	3.50089E-004	7	..........a	-327.62
	673	13.48	4.46295E-001	1.51410E-007	0.00000E+000	4.46000E-001	3.40089E-004	7	..........a	-327.62
	679	13.6	4.58247E-001	1.45434E-007	0.00000E+000	4.58000E-001	3.43422E-004	7	..........a	-327.62
	685	13.72	4.70270E-001	1.49276E-007	0.00000E+000	4.70000E-001	3.49255E-004	7	..........a	-327.62
	691	13.84	4.82224E-001	2.09918E-007	0.00000E+000	4.82000E-001	3.49255E-004	7	..........a	-327.62
	697	13.96	4.94252E-001	1.95199E-007	0.00000E+000	4.94000E-001	3.56755E-004	7	..........a	-327.62
	703	14.08	5.06243E-001	2.32104E-007	0.00000E+000	5.06000E-001	3.55922E-004	7	..........a	-327.62
	709	14.2	5.18260E-001	2.72693E-007	0.00000E+000	5.18000E-001	3.42589E-004	7	..........a	-327.62
	715	14.32	5.30210E-001	2.46665E-007	0.00000E+000	5.30000E-001	3.37589E-004	7	..........a	-327.62
	721	14.44	5.42249E-001	3.57346E-007	0.00000E+000	5.42000E-001	3.40089E-004	7	..........a	-327.62
	727	14.56	5.54261E-001	4.22789E-007	0.00000E+000	5.54000E-001	3.39255E-004	7	..........a	-327.62
	733	14.68	5.66175E-001	4.55160E-007	0.00000E+000	5.66000E-001	3.36755E-004	7	..........a	-327.62
	739	14.8	5.78253E-001	4.73521E-007	0.00000E+000	5.78000E-001	3.27589E-004	7	..........a	-327.62
	745	14.92	5.90210E-001	5.03691E-007	0.00000E+000	5.90000E-001	3.31755E-004	7	..........a	-327.62
	751	15.04	5.98186E-001	5.61566E-007	0.00000E+000	5.98000E-001	3.36755E-004	7	..........a	-327.62
	757	15.16	5.86197E-001	3.06856E-007	0.00000E+000	5.86000E-001	3.39255E-004	7	..........a	-327.62
	763	15.28	5.74206E-001	2.03642E-007	0.00000E+000	5.74000E-001	3.65089E-004	7	..........a	-327.62
	769	15.4	5.62195E-001	1.14780E-007	0.00000E+000	5.62000E-001	3.40089E-004	7	..........a	-327.62
	775	15.52	5.50173E-001	6.01810E-008	0.00000E+000	5.50000E-001	3.40922E-004	7	..........a	-327.62
	781	15.64	5.38209E-001	3.38190E-008	0.00000E+000	5.38000E-001	3.25922E-004	7	..........a	-327.62
	787	15.76	5.26280E-001	3.71195E-008	0.00000E+000	5.26000E-001	3.38422E-004	7	..........a	-327.62
	793	15.88	5.14206E-001	-7.23657E-009	0.00000E+000	5.14000E-001	3.22589E-004	7	..........a	-327.62
	799	16	5.02187E-001	-4.83005E-008	0.00000E+000	5.02000E-001	2.91755E-004	7	..........a	-327.62
	805	16.12	4.90254E-001	-6.54778E-008	0.00000E+000	4.90000E-001	2.99255E-004	7	..........a	-327.62
[...]
	5797	115.96	1.06345E-001	-1.64158E-007	0.00000E+000	1.06000E-001	3.12589E-004	7	..........a	-327.62
	5804	116.1	9.24342E-002	-2.52737E-007	0.00000E+000	9.20000E-002	3.04255E-004	7	..........a	-327.62
	5811	116.24	7.83300E-002	-2.11814E-007	0.00000E+000	7.80000E-002	3.04255E-004	7	..........a	-327.62
	5818	116.38	6.44321E-002	-1.79168E-007	0.00000E+000	6.40000E-002	3.00922E-004	7	..........a	-327.62
	5825	116.52	5.03721E-002	-1.82269E-007	0.00000E+000	5.00000E-002	3.07589E-004	7	..........a	-327.62
	5832	116.66	3.63600E-002	-1.79860E-007	0.00000E+000	3.60000E-002	3.05089E-004	7	..........a	-327.62
	5839	116.8	2.22917E-002	-2.66572E-007	0.00000E+000	2.20000E-002	3.09255E-004	7	..........a	-327.62
	5846	116.94	8.33171E-003	-1.99854E-007	0.00000E+000	8.00002E-003	3.02589E-004	7	..........a	-327.62
	5850	117.02	3.60046E-004	-1.73168E-007	0.00000E+000	2.98023E-008	2.91755E-004	7	..........a	-327.62
CURVE11	TABLE
	Pt	T	Vf	Im	Vu	Sig	Ach	IERange	Over	Temp
	#	s	V vs. Ref.	A	V	V	V	#	bits	deg C
	5851	117.04	2.38380E-003	-1.37138E-007	0.00000E+000	2.00003E-003	2.95922E-004	7	..........a	-327.62
	5853	117.08	6.35505E-003	-1.46339E-007	0.00000E+000	6.00001E-003	3.05922E-004	7	..........a	-327.62
	5855	117.12	1.03413E-002	-7.89964E-008	0.00000E+000	1.00000E-002	2.98422E-004	7	..........a	-327.62
	5857	117.16	1.42388E-002	-8.84476E-008	0.00000E+000	1.40000E-002	2.97589E-004	7	..........a	-327.62
	5859	117.2	1.83900E-002	-2.89645E-008	0.00000E+000	1.80000E-002	3.09255E-004	7	..........a	-327.62
	5861	117.24	2.25075E-002	2.24341E-008	0.00000E+000	2.20000E-002	3.39255E-004	7	..........a	-327.62
	5863	117.28	2.64142E-002	-3.38569E-008	0.00000E+000	2.60000E-002	3.05922E-004	7	..........a	-327.62
	5865	117.32	3.04609E-002	1.57666E-008	0.00000E+000	3.00000E-002	3.47589E-004	7	..........a	-327.62
	5867	117.36	3.44309E-002	3.00935E-008	0.00000E+000	3.40000E-002	3.40089E-004	7	..........a	-327.62
	5869	117.4	3.85605E-002	1.46497E-008	0.00000E+000	3.80000E-002	3.42589E-004	7	..........a	-327.62
	5871	117.44	4.24430E-002	3.32856E-008	0.00000E+000	4.20000E-002	3.41755E-004	7	..........a	-327.62
	5873	117.48	4.63792E-002	2.50642E-009	0.00000E+000	4.60000E-002	3.28422E-004	7	..........a	-327.62
	5875	117.52	5.04338E-002	7.97670E-008	0.00000E+000	5.00000E-002	3.45089E-004	7	..........a	-327.62
	5877	117.56	5.44567E-002	6.25146E-008	0.00000E+000	5.40000E-002	3.53422E-004	7	..........a	-327.62
	5879	117.6	5.83934E-002	3.11937E-008	0.00000E+000	5.80000E-002	3.42589E-004	7	..........a	-327.62
	5881	117.64	6.23900E-002	6.58984E-008	0.00000E+000	6.20000E-002	3.37589E-004	7	..........a	-327.62
	5883	117.68	6.64538E-002	6.66652E-008	0.00000E+000	6.60000E-002	3.44255E-004	7	..........a	-327.62
	5885	117.72	7.04705E-002	7.46163E-008	0.00000E+000	7.00000E-002	3.44255E-004	7	..........a	-327.62
	5887	117.76	7.44171E-002	5.48386E-008	0.00000E+000	7.40000E-002	3.38422E-004	7	..........a	-327.62
	5889	117.8	7.84400E-002	2.90850E-008	0.00000E+000	7.80000E-002	3.45089E-004	7	..........a	-327.62
	5891	117.84	8.24105E-002	2.68931E-008	0.00000E+000	8.20000E-002	3.36755E-004	7	..........a	-327.62
	5893	117.88	8.64167E-002	5.05296E-008	0.00000E+000	8.60000E-002	3.37589E-004	7	..........a	-327.62
	5895	117.92	9.04459E-002	7.15992E-008	0.00000E+000	9.00000E-002	3.40922E-004	7	..........a	-327.62
	5897	117.96	9.43921E-002	7.75333E-008	0.00000E+000	9.40000E-002	3.39255E-004	7	..........a	-327.62
	5899	118	9.84380E-002	8.95683E-008	0.00000E+000	9.80000E-002	3.50089E-004	7	..........a	-327.62
	5901	118.04	1.02433E-001	9.52607E-008	0.00000E+000	1.02000E-001	3.43422E-004	7	..........a	-327.62
	5903	118.08	1.06398E-001	6.25479E-008	0.00000E+000	1.06000E-001	3.45089E-004	7	..........a	-327.62
	5905	118.12	1.10388E-001	8.49760E-008	0.00000E+000	1.10000E-001	3.37589E-004	7	..........a	-327.62
	5907	118.16	1.14337E-001	1.20514E-007	0.00000E+000	1.14000E-001	3.44255E-004	7	..........a	-327.62
	5909	118.2	1.18398E-001	8.84931E-008	0.00000E+000	1.18000E-001	3.40922E-004	7	..........a	-327.62
	5911	118.24	1.22398E-001	1.01278E-007	0.00000E+000	1.22000E-001	3.60089E-004	7	..........a	-327.62
	5913	118.28	1.26383E-001	6.71069E-008	0.00000E+000	1.26000E-001	3.39255E-004	7	..........a	-327.62
	5915	118.32	1.30324E-001	1.11421E-007	0.00000E+000	1.30000E-001	3.40922E-004	7	..........a	-327.62
	5917	118.36	1.34371E-001	1.10996E-007	0.00000E+000	1.34000E-001	3.44255E-004	7	..........a	-327.62
	5919	118.4	1.38353E-001	8.53594E-008	0.00000E+000	1.38000E-001	3.41755E-004	7	..........a	-327.62
	5921	118.44	1.42404E-001	1.01203E-007	0.00000E+000	1.42000E-001	3.40922E-004	7	..........a	-327.62
	5923	118.48	1.46380E-001	9.02267E-008	0.00000E+000	1.46000E-001	3.41755E-004	7	..........a	-327.62
	5925	118.52	1.50376E-001	1.40650E-007	0.00000E+000	1.50000E-001	3.50089E-004	7	..........a	-327.62
	5927	118.56	1.54364E-001	1.14097E-007	0.00000E+000	1.54000E-001	3.38422E-004	7	..........a	-327.62
	5929	118.6	1.58423E-001	8.71846E-008	0.00000E+000	1.58000E-001	3.34255E-004	7	..........a	-327.62
	5931	118.64	1.62361E-001	1.06421E-007	0.00000E+000	1.62000E-001	3.46755E-004	7	..........a	-327.62
	5933	118.68	1.66475E-001	8.43509E-008	0.00000E+000	1.66000E-001	3.41755E-004	7	..........a	-327.62
	5935	118.72	1.70362E-001	1.39742E-007	0.00000E+000	1.70000E-001	3.42589E-004	7	..........a	-327.62
	5937	118.76	1.74340E-001	1.04037E-007	0.00000E+000	1.74000E-001	3.41755E-004	7	..........a	-327.62
	5939	118.8	1.78361E-001	6.43732E-008	0.00000E+000	1.78000E-001	3.41755E-004	7	..........a	-327.62
	5941	118.84	1.82398E-001	1.54469E-007	0.00000E+000	1.82000E-001	3.56755E-004	7	..........a	-327.62
	5943	118.88	1.86335E-001	8.72846E-008	0.00000E+000	1.86000E-001	3.41755E-004	7	..........a	-327.62
	5945	118.92	1.90318E-001	1.28057E-007	0.00000E+000	1.90000E-001	3.40922E-004	7	..........a	-327.62
	5947	118.96	1.94393E-001	1.04479E-007	0.00000E+000	1.94000E-001	3.43422E-004	7	..........a	-327.62
	5949	119	1.98263E-001	1.10863E-007	0.00000E+000	1.98000E-001	3.50089E-004	7	..........a	-327.62
	5951	119.04	2.02350E-001	1.34833E-007	0.00000E+000	2.02000E-001	3.43422E-004	7	..........a	-327.62
	5953	119.08	2.06387E-001	1.02620E-007	0.00000E+000	2.06000E-001	3.39255E-004	7	..........a	-327.62
	5955	119.12	2.10343E-001	1.16405E-007	0.00000E+000	2.10000E-001	3.39255E-004	7	..........a	-327.62
	5957	119.16	2.14343E-001	1.10855E-007	0.00000E+000	2.14000E-001	3.41755E-004	7	..........a	-327.62
	5959	119.2	2.18361E-001	1.11096E-007	0.00000E+000	2.18000E-001	3.42589E-004	7	..........a	-327.62
	5961	119.24	2.22334E-001	1.60070E-007	0.00000E+000	2.22000E-001	3.51755E-004	7	..........a	-327.62
	5963	119.28	2.26367E-001	9.91279E-008	0.00000E+000	2.26000E-001	3.54255E-004	7	..........a	-327.62
	5965	119.32	2.30310E-001	1.20422E-007	0.00000E+000	2.30000E-001	3.42589E-004	7	..........a	-327.62
	5967	119.36	2.34336E-001	1.39692E-007	0.00000E+000	2.34000E-001	3.54255E-004	7	..........a	-327.62
	5969	119.4	2.38342E-001	1.20648E-007	0.00000E+000	2.38000E-001	3.44255E-004	7	..........a	-327.62
	5971	119.44	2.42323E-001	1.28499E-007	0.00000E+000	2.42000E-001	3.41755E-004	7	..........a	-327.62
	5973	119.48	2.46392E-001	9.29187E-008	0.00000E+000	2.46000E-001	3.38422E-004	7	..........a	-327.62
	5975	119.52	2.50353E-001	1.34941E-007	0.00000E+000	2.50000E-001	3.46755E-004	7	..........a	-327.62
	5977	119.56	2.54378E-001	1.42092E-007	0.00000E+000	2.54000E-001	3.41755E-004	7	..........a	-327.62
	5979	119.6	2.58355E-001	1.20981E-007	0.00000E+000	2.58000E-001	3.38422E-004	7	..........a	-327.62
	5981	119.64	2.62303E-001	1.25957E-007	0.00000E+000	2.62000E-001	3.40089E-004	7	..........a	-327.62
	5983	119.68	2.66305E-001	1.13813E-007	0.00000E+000	2.66000E-001	3.40089E-004	7	..........a	-327.62
	5985	119.72	2.70406E-001	1.55677E-007	0.00000E+000	2.70000E-001	3.48422E-004	7	..........a	-327.62
	5987	119.76	2.74356E-001	1.32799E-007	0.00000E+000	2.74000E-001	3.33422E-004	7	..........a	-327.62
	5989	119.8	2.78259E-001	1.15697E-007	0.00000E+000	2.78000E-001	3.41755E-004	7	..........a	-327.62
	5991	119.84	2.82349E-001	1.27307E-007	0.00000E+000	2.82000E-001	3.37589E-004	7	..........a	-327.62
	5993	119.88	2.86377E-001	9.94030E-008	0.00000E+000	2.86000E-001	3.42589E-004	7	..........a	-327.62
	5995	119.92	2.90318E-001	1.58161E-007	0.00000E+000	2.90000E-001	3.38422E-004	7	..........a	-327.62
	5997	119.96	2.94295E-001	1.26382E-007	0.00000E+000	2.94000E-001	3.33422E-004	7	..........a	-327.62
	5999	120	2.98343E-001	1.21389E-007	0.00000E+000	2.98000E-001	3.42589E-004	7	..........a	-327.62
	6000	120.02	3.00333E-001	1.47535E-007	0.00000E+000	3.00000E-001	3.47589E-004	7	..........a	-327.62